Folder: Tokyo-University-of-Science/学部3年/前期/学生実験/B2/XRD

Note: README.md
# Tokyo-University-of-Science
理科大の課題など

File: Fe2O3_calc.txt
Fe2O3	100.001
2.46	0	20
2.93	0	20
3.4	0	20
3.87	0	20
4.34	0	20
4.81	0	20
5.28	0	20
5.75	0	20
6.22	0	20
6.69	0	20
7.16	0	20
7.63	0	20
8.1	0	20
8.57	0	20
9.04	0	20
9.51	0	20
9.98	0	20
10.45	0	20
10.92	0	20
11.39	0	20
11.86	0	20
12.33	0	20
12.8	0	20
13.27	0	20
13.74	0	20
14.21	0	20
14.68	0	20
15.15	0	20
15.62	0	20
16.09	0	20
16.56	0	20
17.03	0	20
17.5	0	20
17.97	0	20
18.44	0	20
18.91	0	20
19.38	0	20
19.85	0	20
20.32	0	20
20.79	0	20
21.26	0	20
21.73	0	20
22.2	0	20
22.67	0	20
23.14	0	20
23.61	0.413	20.413
24.08	13.334	33.334
24.55	0	20
25.02	0	20
25.49	0	20
25.96	0	20
26.43	0	20
26.9	0	20
27.37	0	20
27.84	0	20
28.31	0	20
28.78	0	20
29.25	0	20
29.72	0	20
30.19	0	20
30.66	0	20
31.13	0	20
31.6	0	20
32.07	0	20
32.54	0.844	20.844
33.01	54.511	74.511
33.48	0.129	20.129
33.95	0	20
34.42	0	20
34.89	0.236	20.236
35.36	9.781	29.781
35.83	0.614	20.614
36.3	0	20
36.77	0	20
37.24	0	20
37.71	0	20
38.18	0	20
38.65	0.043	20.043
39.12	0.542	20.542
39.59	0	20
40.06	0	20
40.53	2.135	22.135
41	0.205	20.205
41.47	0	20
41.94	0	20
42.41	0	20
42.88	0.023	20.023
43.35	1.074	21.074
43.82	0.006	20.006
44.29	0	20
44.76	0	20
45.23	0	20
45.7	0	20
46.17	0	20
46.64	0	20
47.11	0	20
47.58	0	20
48.05	0	20
48.52	0	20
48.99	1.135	21.135
49.46	0.874	20.874
49.93	0	20
50.4	0	20
50.87	0	20
51.34	0	20
51.81	0	20
52.28	0	20
52.75	0	20
53.22	0.234	20.234
53.69	42.152	62.152
54.16	0.463	20.463
54.63	0	20
55.1	0	20
55.57	0.007	20.007
56.04	0.267	20.267
56.51	0.001	20.001
56.98	0.296	20.296
57.45	0.251	20.251
57.92	0	20
58.39	0	20
58.86	0	20
59.33	0	20
59.8	0	20
60.27	0	20
60.74	0	20
61.21	0	20
61.68	0.217	20.217
62.15	8.844	28.844
62.62	0.185	20.185
63.09	0	20
63.56	1.946	21.946
64.03	0.698	20.698
64.5	0	20
64.97	0	20
65.44	0.007	20.007
65.91	0.025	20.025
66.38	0	20
66.85	0	20
67.32	0	20
67.79	0	20
68.26	0	20
68.73	0.015	20.015
69.2	0.23	20.23
69.67	0.01	20.01
70.14	0	20
70.61	0	20
71.08	0.186	20.186
71.55	4.192	24.192
72.02	0.24	20.24
72.49	0.003	20.003
72.96	0	20
73.43	0	20
73.9	0	20
74.37	0.002	20.002
74.84	0.172	20.172
75.31	2.677	22.677
75.78	0.014	20.014
76.25	0	20
76.72	0.014	20.014
77.19	0.602	20.602
77.66	0.087	20.087
78.13	0.028	20.028
78.6	0.454	20.454
79.07	0.046	20.046
79.54	0.014	20.014
80.01	0.212	20.212
80.48	0.415	20.415
80.95	0.007	20.007
81.42	0	20
81.89	0.041	20.041
82.36	2.531	22.531
82.83	0.069	20.069
83.3	0.003	20.003
83.77	0.313	20.313
84.24	0.211	20.211
84.71	2.676	22.676
85.18	0.019	20.019
85.65	0	20
86.12	0	20
86.59	0	20
87.06	0	20
87.53	0.054	20.054
88	5.761	25.761
88.47	0.215	20.215
88.94	0.013	20.013
89.41	0	20
89.88	0	20
90.35	0.005	20.005
90.82	0.4	20.4
91.29	0.032	20.032
91.76	0.001	20.001
92.23	0	20
92.7	0.168	20.168
93.17	0.703	20.703
93.64	0.069	20.069
94.11	0	20
94.58	0.012	20.012
95.05	0.46	20.46
95.52	0.21	20.21
95.99	0.006	20.006
96.46	0.006	20.006
96.93	0	20
97.4	0	20
97.87	0	20
98.34	0	20
98.81	0	20
99.28	0	20
99.75	0	20
100.22	0.003	20.003
100.69	0.009	20.009
101.16	0.023	20.023
101.63	0.843	20.843
102.1	0.062	20.062
102.57	0.004	20.004
103.04	0	20
103.51	0.002	20.002
103.98	0.031	20.031
104.45	0.086	20.086
104.92	0.002	20.002
105.39	0.046	20.046
105.86	1.07	21.07
106.33	2.448	22.448
106.8	0.056	20.056
107.27	0.263	20.263
107.74	0.446	20.446
108.21	0.046	20.046
108.68	0	20
109.15	0.004	20.004
109.62	0.006	20.006
110.09	0.003	20.003
110.56	0.018	20.018
111.03	0.043	20.043
111.5	0.012	20.012
111.97	0.004	20.004
112.44	0.021	20.021
112.91	0.073	20.073
113.38	0.024	20.024
113.85	0.002	20.002
114.32	0.026	20.026
114.79	0.184	20.184
115.26	0.465	20.465
115.73	0.187	20.187
116.2	0.029	20.029
116.67	0.662	20.662
117.14	0.389	20.389
117.61	0.233	20.233
118.08	0.117	20.117
118.55	0.022	20.022
119.02	0.008	20.008
119.49	0.001	20.001
119.96	0	20
120.43	0	20
120.9	0.056	20.056
121.37	0.695	20.695
121.84	0.442	20.442
122.31	0.179	20.179
122.78	0.019	20.019
123.25	0	20
123.72	0.005	20.005
124.19	0.009	20.009
124.66	0.027	20.027
125.13	0.07	20.07
125.6	0.083	20.083
126.07	0.025	20.025
126.54	0.012	20.012
127.01	0.037	20.037
127.48	0.716	20.716
127.95	0.173	20.173
128.42	0.082	20.082
128.89	0.009	20.009
129.36	0.036	20.036
129.83	0.126	20.126
130.3	3.886	23.886
130.77	0.52	20.52
131.24	0.175	20.175
131.71	0.083	20.083
132.18	1.709	21.709
132.65	0.208	20.208
133.12	0.113	20.113
133.59	0.013	20.013
134.06	0.005	20.005
134.53	0	20
135	0	20
135.47	0	20
135.94	0	20
136.41	0	20
136.88	0.001	20.001
137.35	0.003	20.003
137.82	0.028	20.028
138.29	0.007	20.007
138.76	0.009	20.009
139.23	0.074	20.074
139.7	0.019	20.019
140	0.038	20.038

File: NiFe2O4_calc.txt
Fe2NiO4	100
2	0	140
2.47	0	140
2.94	0	140
3.41	0	140
3.88	0	140
4.35	0	140
4.82	0	140
5.29	0	140
5.76	0	140
6.23	0	140
6.7	0	140
7.17	0	140
7.64	0	140
8.11	0	140
8.58	0	140
9.05	0	140
9.52	0	140
9.99	0	140
10.46	0	140
10.93	0	140
11.4	0	140
11.87	0	140
12.34	0	140
12.81	0	140
13.28	0	140
13.75	0	140
14.22	0	140
14.69	0	140
15.16	0	140
15.63	0	140
16.1	0	140
16.57	0	140
17.04	0	140
17.51	0	140
17.98	0.203	140.203
18.45	0.658	140.658
18.92	0	140
19.39	0	140
19.86	0	140
20.33	0	140
20.8	0	140
21.27	0	140
21.74	0	140
22.21	0	140
22.68	0	140
23.15	0	140
23.62	0	140
24.09	0	140
24.56	0	140
25.03	0	140
25.5	0	140
25.97	0	140
26.44	0	140
26.91	0	140
27.38	0	140
27.85	0	140
28.32	0	140
28.79	0	140
29.26	0	140
29.73	0.199	140.199
30.2	29.87	169.87
30.67	0.051	140.051
31.14	0	140
31.61	0	140
32.08	0	140
32.55	0	140
33.02	0	140
33.49	0	140
33.96	0	140
34.43	0	140
34.9	0	140
35.37	2.987	142.987
35.84	1.686	141.686
36.31	0	140
36.78	0.056	140.056
37.25	4.142	144.142
37.72	0.015	140.015
38.19	0	140
38.66	0	140
39.13	0	140
39.6	0	140
40.07	0	140
40.54	0	140
41.01	0	140
41.48	0	140
41.95	0	140
42.42	0	140
42.89	0.213	140.213
43.36	10.004	150.004
43.83	0.032	140.032
44.3	0	140
44.77	0	140
45.24	0	140
45.71	0	140
46.18	0	140
46.65	0	140
47.12	0.003	140.003
47.59	0.005	140.005
48.06	0	140
48.53	0	140
49	0	140
49.47	0	140
49.94	0	140
50.41	0	140
50.88	0	140
51.35	0	140
51.82	0	140
52.29	0	140
52.76	0	140
53.23	0.063	140.063
53.7	3.797	143.797
54.17	0.052	140.052
54.64	0	140
55.11	0	140
55.58	0	140
56.05	0	140
56.52	0	140
56.99	0.848	140.848
57.46	1.596	141.596
57.93	0	140
58.4	0	140
58.87	0	140
59.34	0	140
59.81	0	140
60.28	0	140
60.75	0	140
61.22	0	140
61.69	0	140
62.16	0	140
62.63	1.211	141.211
63.1	1.982	141.982
63.57	0	140
64.04	0	140
64.51	0	140
64.98	0	140
65.45	0	140
65.92	0.073	140.073
66.39	0.039	140.039
66.86	0.001	140.001
67.33	0.012	140.012
67.8	0	140
68.27	0	140
68.74	0	140
69.21	0	140
69.68	0	140
70.15	0	140
70.62	0	140
71.09	0.089	140.089
71.56	0.36	140.36
72.03	0.005	140.005
72.5	0	140
72.97	0	140
73.44	0	140
73.91	0.048	140.048
74.38	4.469	144.469
74.85	0.094	140.094
75.32	1.732	141.732
75.79	0.057	140.057
76.26	0	140
76.73	0	140
77.2	0	140
77.67	0	140
78.14	0	140
78.61	0	140
79.08	0.044	140.044
79.55	0.605	140.605
80.02	0.006	140.006
80.49	0	140
80.96	0	140
81.43	0	140
81.9	0.007	140.007
82.37	0.233	140.233
82.84	0.009	140.009
83.31	0	140
83.78	0	140
84.25	0	140
84.72	0	140
85.19	0	140
85.66	0	140
86.13	0	140
86.6	0.014	140.014
87.07	0.271	140.271
87.54	0.48	140.48
88.01	0.007	140.007
88.48	0	140
88.95	0	140
89.42	0.031	140.031
89.89	0.298	140.298
90.36	2.133	142.133
90.83	0.038	140.038
91.3	0	140
91.77	0	140
92.24	0	140
92.71	0	140
93.18	0	140
93.65	0	140
94.12	0	140
94.59	0.044	140.044
95.06	1.339	141.339
95.53	0.076	140.076
96	0.006	140.006
96.47	0	140
96.94	0	140
97.41	0	140
97.88	0.006	140.006
98.35	0.002	140.002
98.82	0.001	140.001
99.29	0.002	140.002
99.76	0	140
100.23	0	140
100.7	0	140
101.17	0	140
101.64	0	140
102.11	0.005	140.005
102.58	0.034	140.034
103.05	0.142	140.142
103.52	0.026	140.026
103.99	0.003	140.003
104.46	0	140
104.93	0	140
105.4	0.045	140.045
105.87	2.595	142.595
106.34	1.434	141.434
106.81	0.178	140.178
107.28	0.338	140.338
107.75	0.006	140.006
108.22	0	140
108.69	0	140
109.16	0	140
109.63	0	140
110.1	0	140
110.57	0.02	140.02
111.04	1.311	141.311
111.51	0.548	140.548
111.98	0.008	140.008
112.45	0	140
112.92	0	140
113.39	0.001	140.001
113.86	0.006	140.006
114.33	0.051	140.051
114.8	0.018	140.018
115.27	0.02	140.02
115.74	0.011	140.011
116.21	0	140
116.68	0	140
117.15	0	140
117.62	0	140
118.09	0	140
118.56	0	140
119.03	0.003	140.003
119.5	0.037	140.037
119.97	0.031	140.031
120.44	0.012	140.012
120.91	0.001	140.001
121.38	0	140
121.85	0	140
122.32	0.024	140.024
122.79	0.142	140.142
123.26	0.65	140.65
123.73	0.752	140.752
124.2	0.022	140.022
124.67	0.007	140.007
125.14	0	140
125.61	0	140
126.08	0	140
126.55	0	140
127.02	0	140
127.49	0	140
127.96	0	140
128.43	0.059	140.059
128.9	0.44	140.44
129.37	0.674	140.674
129.84	1.461	141.461
130.31	0.048	140.048
130.78	0.014	140.014
131.25	0	140
131.72	0	140
132.19	0.001	140.001
132.66	0.005	140.005
133.13	0.048	140.048
133.6	0.02	140.02
134.07	0.003	140.003
134.54	0	140
135.01	0	140
135.48	0	140
135.95	0	140
136.42	0	140
136.89	0	140
137.36	0	140
137.83	0	140
138.3	0	140
138.77	0.006	140.006
139.24	0.014	140.014
139.71	0.062	140.062
140	0.364	140.364

File: Sample1_NaOH_2θ_θ.TXT
Sample	äwê∂é¿å±3TM_NaOH
Comments
Filename	C:\Users\User1\Desktop\DATA\äwê∂é¿å±3TM\äwê∂é¿å±3TM_NaOH_2É∆_É∆.raw
Goniometer	MiniFlex 300/600 +
Attachment	âÒì]ééóøë‰
Monochromater	None
X	0
Y	0
Z	0
ScanningMode	2Theta/Theta
ScanningType	Continuos Scanning
X-Ray	40kV/15mA
IHS	5.0mm
DS	1.250deg
SS	13.0mm(Open)
RS	13.0mm(Open)
K-beta(x1)
Start	20
Stop	80
Step	0.01
Speed	1
Offset	0	20273
20	914	384.508
20.21	933	384.602
20.42	938	384.627
20.63	942	384.647
20.84	914	384.508
21.05	913	384.504
21.26	920	384.538
21.47	969	384.78
21.68	955	384.711
21.89	935	384.612
22.1	923	384.553
22.31	966	384.765
22.52	904	384.459
22.73	962	384.745
22.94	1019	385.026
23.15	956	384.716
23.36	932	384.597
23.57	947	384.671
23.78	913	384.504
23.99	946	384.666
24.2	939	384.632
24.41	924	384.558
24.62	928	384.578
24.83	949	384.681
25.04	927	384.573
25.25	984	384.854
25.46	899	384.434
25.67	934	384.607
25.88	966	384.765
26.09	1001	384.938
26.3	937	384.622
26.51	959	384.73
26.72	963	384.75
26.93	972	384.795
27.14	991	384.888
27.35	1003	384.947
27.56	999	384.928
27.77	959	384.73
27.98	1020	385.031
28.19	973	384.799
28.4	1003	384.947
28.61	995	384.908
28.82	1033	385.095
29.03	1009	384.977
29.24	996	384.913
29.45	1052	385.189
29.66	1047	385.165
29.87	1078	385.317
30.08	1042	385.14
30.29	2872	394.167
30.5	1220	386.018
30.71	1069	385.273
30.92	1051	385.184
31.13	1083	385.342
31.34	1034	385.1
31.55	1031	385.086
31.76	1081	385.332
31.97	1070	385.278
32.18	1185	385.845
32.39	1082	385.337
32.6	1054	385.199
32.81	1054	385.199
33.02	1075	385.303
33.23	1082	385.337
33.44	1108	385.465
33.65	1128	385.564
33.86	1110	385.475
34.07	1171	385.776
34.28	1097	385.411
34.49	1225	386.043
34.7	1270	386.264
34.91	1140	385.623
35.12	1206	385.949
35.33	1320	386.511
35.54	1637	388.075
35.75	13317	445.688
35.96	1571	387.749
36.17	1284	386.334
36.38	1287	386.348
36.59	1228	386.057
36.8	1202	385.929
37.01	1234	386.087
37.22	1256	386.195
37.43	1825	389.002
37.64	1200	385.919
37.85	1176	385.801
38.06	1201	385.924
38.27	1216	385.998
38.48	1178	385.811
38.69	1217	386.003
38.9	1172	385.781
39.11	1158	385.712
39.32	1172	385.781
39.53	1203	385.934
39.74	1200	385.919
39.95	1224	386.038
40.16	1175	385.796
40.37	1243	386.131
40.58	1233	386.082
40.79	1249	386.161
41	1216	385.998
41.21	1244	386.136
41.42	1265	386.24
41.63	1301	386.417
41.84	1511	387.453
42.05	1303	386.427
42.26	1298	386.403
42.47	1283	386.329
42.68	1265	386.24
42.89	1307	386.447
43.1	1447	387.138
43.31	1669	388.233
43.52	4567	402.527
43.73	1396	386.886
43.94	1341	386.615
44.15	1283	386.329
44.36	1299	386.408
44.57	1307	386.447
44.78	1370	386.758
44.99	1296	386.393
45.2	1339	386.605
45.41	1319	386.506
45.62	1326	386.541
45.83	1318	386.501
46.04	1295	386.388
46.25	1349	386.654
46.46	1349	386.654
46.67	1275	386.289
46.88	1349	386.654
47.09	1340	386.61
47.3	1332	386.57
47.51	1481	387.305
47.72	1355	386.684
47.93	1349	386.654
48.14	1379	386.802
48.35	1362	386.718
48.56	1339	386.605
48.77	1370	386.758
48.98	1370	386.758
49.19	1361	386.713
49.4	1352	386.669
49.61	1440	387.103
49.82	1409	386.95
50.03	1411	386.96
50.24	1405	386.9304
50.45	1429	387.049
50.66	1383	386.822
50.87	1454	387.172
51.08	1436	387.083
51.29	1468	387.241
51.5	1488	387.34
51.71	1460	387.202
51.92	1483	387.315
52.13	1455	387.177
52.34	1435	387.078
52.55	1435	387.078
52.76	1500	387.399
52.97	1437	387.088
53.18	1507	387.434
53.39	1478	387.29
53.6	1567	387.729
53.81	2815	393.885
54.02	2461	392.139
54.23	1575	387.769
54.44	1516	387.478
54.65	1519	387.493
54.86	1569	387.739
55.07	1528	387.537
55.28	1557	387.68
55.49	1563	387.71
55.7	1542	387.606
55.91	1580	387.794
56.12	1557	387.68
56.33	1600	387.892
56.54	1547	387.631
56.75	1604	387.912
56.96	1621	387.996
57.17	1795	388.854
57.38	8481	421.834
57.59	4200	400.717
57.8	1722	388.494
58.01	1650	388.139
58.22	1648	388.129
58.43	1605	387.917
58.64	1584	387.813
58.85	1628	388.03
59.06	1653	388.154
59.27	1760	388.681
59.48	1684	388.307
59.69	1625	388.016
59.9	1611	387.947
60.11	1618	387.981
60.32	1610	387.942
60.53	1630	388.04
60.74	1686	388.316
60.95	1644	388.109
61.16	1725	388.509
61.37	1682	388.297
61.58	1725	388.509
61.79	1840	389.076
62	1731	388.538
62.21	1761	388.686
62.42	1718	388.474
62.63	1845	389.101
62.84	2001	389.87
63.05	10714	432.849
63.26	3543	397.476
63.47	1852	389.135
63.68	1753	388.647
63.89	1761	388.686
64.1	1747	388.617
64.31	1692	388.346
64.52	1710	388.435
64.73	1739	388.578
64.94	1763	388.696
65.15	1714	388.455
65.36	1727	388.519
65.57	1731	388.538
65.78	1744	388.603
65.99	1740	388.583
66.2	1807	388.913
66.41	1783	388.795
66.62	1742	388.593
66.83	1813	388.943
67.04	1738	388.573
67.25	1784	388.8
67.46	1746	388.612
67.67	1741	388.588
67.88	1791	388.834
68.09	1736	388.563
68.3	1766	388.711
68.51	1772	388.741
68.72	1760	388.681
68.93	1767	388.716
69.14	1718	388.474
69.35	1803	388.894
69.56	1833	389.042
69.77	1825	389.002
69.98	1783	388.795
70.19	1747	388.617
70.4	1838	389.066
70.61	1815	388.953
70.82	1783	388.795
71.03	1810	388.928
71.24	1857	389.16
71.45	1993	389.831
71.66	1898	389.362
71.87	1832	389.037
72.08	1789	388.825
72.29	1807	388.913
72.5	1830	389.027
72.71	1836	389.056
72.92	1902	389.382
73.13	1798	388.869
73.34	1851	389.13
73.55	1815	388.953
73.76	1835	389.051
73.97	1792	388.839
74.18	1855	389.15
74.39	1897	389.357
74.6	4398	401.694
74.81	3228	395.923
75.02	1878	389.264
75.23	1863	389.19
75.44	1902	389.382
75.65	2221	390.955
75.86	2118	390.447
76.07	1826	389.007
76.28	1852	389.135
76.49	1863	389.19
76.7	1768	388.721
76.91	1797	388.864
77.12	1813	388.943
77.33	1867	389.209
77.54	1860	389.175
77.75	1789	388.825
77.96	1851	389.13
78.17	1806	388.908
78.38	1832	389.037
78.59	1844	389.096
78.8	1880	389.273
79.01	1890	389.323
79.22	1913	389.436
79.43	1840	389.076
79.64	2435	392.011
79.85	2399	391.833
80	1945	389.594

File: Sample2_NH3_2θ_θ.TXT
Sample	äwê∂é¿å±3TM_NH3
Comments
Filename	C:\Users\User1\Desktop\DATA\äwê∂é¿å±3TM\äwê∂é¿å±3TM_NH3_2É∆_É∆.raw
Goniometer	MiniFlex 300/600 +
Attachment	âÒì]ééóøë‰
Monochromater	None
X	0
Y	0
Z	0
ScanningMode	2Theta/Theta
ScanningType	Continuos Scanning
X-Ray	40kV/15mA
IHS	5.0mm
DS	1.250deg
SS	13.0mm(Open)
RS	13.0mm(Open)
K-beta(x1)
Start	20
Stop	80
Step	0.01
Speed	1
Offset	0	10539
20	858	268.141
20.21	809	267.676
20.42	843	267.999
20.63	828	267.857
20.84	838	267.951
21.05	825	267.828
21.26	836	267.932
21.47	844	268.008
21.68	822	267.8
21.89	805	267.638
22.1	847	268.037
22.31	834	267.913
22.52	827	267.847
22.73	829	267.866
22.94	840	267.97
23.15	859	268.151
23.36	842	267.989
23.57	875	268.302
23.78	840	267.97
23.99	862	268.179
24.2	2243	281.283
24.41	864	268.198
24.62	852	268.084
24.83	848	268.046
25.04	833	267.904
25.25	843	267.999
25.46	840	267.97
25.67	830	267.876
25.88	863	268.189
26.09	826	267.838
26.3	856	268.122
26.51	859	268.151
26.72	843	267.999
26.93	848	268.046
27.14	808	267.667
27.35	898	268.521
27.56	862	268.179
27.77	865	268.208
27.98	864	268.198
28.19	842	267.989
28.4	864	268.198
28.61	880	268.35
28.82	848	268.046
29.03	838	267.951
29.24	876	268.312
29.45	877	268.321
29.66	882	268.369
29.87	955	269.062
30.08	880	268.35
30.29	1490	274.138
30.5	907	268.606
30.71	895	268.492
30.92	910	268.635
31.13	864	268.198
31.34	895	268.492
31.55	878	268.331
31.76	850	268.065
31.97	890	268.445
32.18	953	269.043
32.39	933	268.853
32.6	942	268.938
32.81	954	269.052
33.02	1218	271.557
33.23	5773	314.777
33.44	1038	269.849
33.65	926	268.786
33.86	902	268.559
34.07	905	268.587
34.28	925	268.777
34.49	935	268.872
34.7	939	268.91
34.91	947	268.986
35.12	946	268.976
35.33	1053	269.991
35.54	1749	276.596
35.75	3904	297.043
35.96	1068	270.134
36.17	965	269.156
36.38	911	268.644
36.59	957	269.081
36.8	978	269.28
37.01	928	268.805
37.22	964	269.147
37.43	1031	269.783
37.64	952	269.033
37.85	975	269.251
38.06	990	269.394
38.27	969	269.194
38.48	976	269.261
38.69	937	268.891
38.9	964	269.147
39.11	990	269.394
39.32	1102	270.4564
39.53	984	269.337
39.74	1004	269.527
39.95	962	269.128
40.16	981	269.308
40.37	988	269.375
40.58	1036	269.83
40.79	1451	273.768
41	1596	275.144
41.21	1073	270.181
41.42	996	269.451
41.63	1025	269.726
41.84	1025	269.726
42.05	990	269.394
42.26	975	269.251
42.47	1018	269.659
42.68	1004	269.527
42.89	996	269.451
43.1	1010	269.583
43.31	1271	272.06
43.52	1386	273.151
43.73	1016	269.64
43.94	1077	270.219
44.15	1049	269.954
44.36	1033	269.802
44.57	1051	269.972
44.78	1019	269.669
44.99	1040	269.868
45.2	1076	270.21
45.41	1073	270.181
45.62	1037	269.84
45.83	1038	269.849
46.04	1022	269.697
46.25	1027	269.745
46.46	1113	270.561
46.67	1071	270.162
46.88	1056	270.02
47.09	1047	269.935
47.3	1036	269.83
47.51	1090	270.343
47.72	1108	270.513
47.93	1096	270.399
48.14	1142	270.836
48.35	1119	270.618
48.56	1101	270.447
48.77	1100	270.437
48.98	1102	270.4564
49.19	1161	271.016
49.4	2437	283.124
49.61	3027	288.722
49.82	1201	271.396
50.03	1112	270.551
50.24	1135	270.77
50.45	1143	270.845
50.66	1099	270.428
50.87	1175	271.149
51.08	1119	270.618
51.29	1137	270.788
51.5	1131	270.732
51.71	1155	270.959
51.92	1113	270.561
52.13	1165	271.054
52.34	1173	271.13
52.55	1169	271.092
52.76	1173	271.13
52.97	1167	271.073
53.18	1183	271.225
53.39	1204	271.424
53.6	1247	271.832
53.81	1524	274.461
54.02	3272	291.047
54.23	3930	297.29
54.44	1287	272.212
54.65	1232	271.69
54.86	1194	271.329
55.07	1193	271.32
55.28	1189	271.282
55.49	1248	271.842
55.7	1230	271.671
55.91	1241	271.775
56.12	1297	272.307
56.33	1259	271.946
56.54	1226	271.633
56.75	1234	271.709
56.96	1198	271.367
57.17	1282	272.164
57.38	2198	280.856
57.59	2488	283.608
57.8	1618	275.353
58.01	1249	271.851
58.22	1237	271.737
58.43	1266	272.013
58.64	1256	271.918
58.85	1253	271.889
59.06	1205	271.434
59.27	1297	272.307
59.48	1227	271.642
59.69	1259	271.946
59.9	1250	271.861
60.11	1253	271.889
60.32	1256	271.918
60.53	1288	272.221
60.74	1282	272.164
60.95	1266	272.013
61.16	1271	272.06
61.37	1312	272.449
61.58	1310	272.43
61.79	1248	271.842
62	1333	272.648
62.21	1392	273.208
62.42	5412	311.352
62.63	2671	285.344
62.84	1441	273.673
63.05	2123	280.144
63.26	1590	275.087
63.47	1378	273.075
63.68	1379	273.085
63.89	1980	278.787
64.1	2263	281.473
64.31	1422	273.493
64.52	1386	273.151
64.73	1325	272.572
64.94	1342	272.734
65.15	1316	272.487
65.36	1297	272.307
65.57	1318	272.506
65.78	1314	272.468
65.99	1338	272.696
66.2	1351	272.819
66.41	1333	272.648
66.62	1332	272.639
66.83	1369	272.99
67.04	1332	272.639
67.25	1331	272.629
67.46	1338	272.696
67.67	1366	272.961
67.88	1316	272.487
68.09	1322	272.544
68.3	1386	273.151
68.51	1337	272.686
68.72	1370	272.999
68.93	1321	272.534
69.14	1389	273.18
69.35	1396	273.246
69.56	1597	275.153
69.77	1541	274.622
69.98	1377	273.066
70.19	1353	272.838
70.4	1354	272.848
70.61	1380	273.094
70.82	1393	273.218
71.03	1357	272.876
71.24	1316	272.487
71.45	1455	273.806
71.66	1405	273.331
71.87	1571	274.907
72.08	1636	275.523
72.29	1753	276.633
72.5	1517	274.394
72.71	1427	273.54
72.92	1384	273.132
73.13	1402	273.303
73.34	1383	273.123
73.55	1436	273.626
73.76	1368	272.98
73.97	1315	272.477
74.18	1386	273.151
74.39	1382	273.113
74.6	1601	275.191
74.81	1472	273.967
75.02	1390	273.189
75.23	1458	273.834
75.44	2310	281.919
75.65	1917	278.19
75.86	1434	273.607
76.07	1368	272.98
76.28	1385	273.142
76.49	1409	273.369
76.7	1358	272.885
76.91	1379	273.085
77.12	1389	273.18
77.33	1350	272.81
77.54	1383	273.123
77.75	1700	276.131
77.96	1577	274.963
78.17	1420	273.474
78.38	1412	273.398
78.59	1420	273.474
78.8	1495	274.185
79.01	1500	274.233
79.22	1393	273.218
79.43	1441	273.673
79.64	1424	273.512
79.85	1442	273.683
80	1358	272.885